           1   Distribution indicator
   12206844.3386962       Energy required by melter (W)
   11366576.5770917       Combustion Heat Transfer to Melter (W)
   1422.82289664607       Mean Surface Temperature (K)

         Surface Temperature (K)

 X / Y          -0.310     -0.155      0.077      0.756      1.958      3.160      4.362      5.564      6.766      7.968      9.170
     -0.310        0.0        0.0        0.0        0.0        0.0        0.0        0.0        0.0        0.0        0.0        0.0
     -0.155        0.0        0.0        0.0        0.0        0.0        0.0        0.0        0.0        0.0        0.0        0.0
      0.744        0.0        0.0     1373.0     1366.0     1337.7     1316.2     1323.5     1332.5     1306.7     1301.0     1316.7
      2.232        0.0        0.0     1375.9     1370.5     1357.3     1333.4     1338.9     1348.9     1320.8     1313.2     1319.3
      2.977        0.0        0.0     1376.7     1372.6     1368.1     1343.1     1347.1     1356.7     1327.2     1319.1     1322.0
      3.174        0.0        0.0     1376.9     1373.1     1371.0     1345.6     1349.3     1358.8     1328.9     1320.7     1322.7
      3.383        0.0        0.0     1377.1     1373.7     1374.0     1348.4     1351.6     1361.0     1330.7     1322.3     1323.5
      3.409        0.0        0.0     1377.2     1373.7     1374.4     1348.7     1351.9     1361.2     1330.9     1322.5     1323.6
      3.619        0.0        0.0     1377.4     1374.3     1377.4     1351.4     1354.2     1363.4     1332.7     1324.2     1324.4
      4.011        0.0        0.0     1377.6     1375.1     1381.7     1355.3     1357.9     1367.2     1336.0     1327.3     1326.8
      4.221        0.0        0.0     1377.8     1375.5     1384.0     1357.4     1359.8     1369.3     1337.7     1328.9     1328.1
      4.247        0.0        0.0     1377.8     1375.5     1384.3     1357.7     1360.0     1369.5     1337.9     1329.1     1328.3
      4.456        0.0        0.0     1377.9     1375.9     1386.6     1359.8     1362.0     1371.6     1339.7     1330.8     1329.6
      4.653        0.0        0.0     1378.0     1376.3     1388.8     1361.8     1363.8     1373.5     1341.3     1332.3     1330.8
      5.326        0.0        0.0     1378.3     1377.5     1396.0     1368.3     1369.8     1379.9     1346.8     1337.6     1335.6
      6.214        0.0        0.0     1378.3     1378.9     1405.1     1376.4     1377.3     1388.1     1354.0     1344.4     1342.8
      6.443        0.0        0.0     1378.3     1379.2     1407.4     1378.5     1379.2     1390.2     1355.8     1346.2     1344.6
      6.469        0.0        0.0     1378.3     1379.3     1407.7     1378.7     1379.4     1390.4     1356.0     1346.4     1344.8
      6.697        0.0        0.0     1379.3     1380.0     1409.8     1380.1     1381.1     1392.3     1357.7     1348.0     1346.6
      7.128        0.0        0.0     1381.2     1381.5     1413.7     1382.4     1384.1     1395.8     1360.9     1351.0     1350.0
      7.356        0.0        0.0     1382.2     1382.3     1415.8     1383.7     1385.7     1397.6     1362.6     1352.6     1351.8
      7.382        0.0        0.0     1382.3     1382.4     1416.0     1383.8     1385.9     1397.9     1362.8     1352.8     1352.0
      7.592        0.0        0.0     1383.2     1383.1     1417.9     1385.0     1387.4     1399.5     1364.3     1354.3     1353.6
      7.807        0.0        0.0     1384.1     1383.8     1419.9     1386.1     1389.0     1401.3     1365.9     1355.8     1355.3
      8.549        0.0        0.0     1396.4     1388.9     1422.5     1386.8     1394.1     1407.0     1370.3     1360.8     1360.4
      9.488        0.0        0.0     1415.7     1396.7     1424.5     1386.7     1400.1     1413.7     1375.0     1366.5     1366.4
      9.716        0.0        0.0     1423.1     1400.0     1424.4     1386.5     1400.9     1414.8     1375.0     1367.0     1367.5
      9.742        0.0        0.0     1423.9     1400.4     1424.4     1386.5     1401.0     1415.0     1375.0     1367.1     1367.6
      9.970        0.0        0.0     1431.3     1403.6     1424.3     1386.3     1401.8     1416.1     1375.0     1367.7     1368.7
     10.401        0.0        0.0     1445.1     1409.7     1424.2     1385.9     1403.3     1418.1     1375.0     1368.7     1370.7
     10.629        0.0        0.0     1452.4     1412.9     1424.1     1385.7     1404.1     1419.2     1375.0     1369.3     1371.8
     10.655        0.0        0.0     1453.3     1413.3     1424.1     1385.7     1404.2     1419.3     1375.0     1369.3     1371.9
     10.884        0.0        0.0     1459.3     1417.5     1427.0     1387.9     1404.7     1420.1     1374.9     1369.6     1372.9
     11.835        0.0        0.0     1474.0     1442.7     1463.7     1416.1     1404.1     1420.1     1373.9     1369.0     1376.2
     12.779        0.0        0.0     1481.6     1463.6     1482.0     1437.6     1417.2     1419.8     1386.0     1374.2     1380.1
     13.001        0.0        0.0     1482.1     1467.7     1483.1     1441.4     1422.7     1419.7     1391.3     1376.5     1381.0
     13.027        0.0        0.0     1482.2     1468.2     1483.2     1441.9     1423.4     1419.7     1391.9     1376.8     1381.2
     13.250        0.0        0.0     1482.7     1472.3     1484.2     1445.7     1429.0     1419.6     1397.2     1379.1     1382.1
     13.667        0.0        0.0     1483.6     1480.0     1486.1     1452.9     1439.4     1419.4     1407.1     1383.4     1384.0
     13.889        0.0        0.0     1485.5     1481.1     1485.6     1455.7     1444.5     1426.4     1413.6     1385.2     1385.1
     13.916        0.0        0.0     1485.8     1481.2     1485.5     1456.1     1445.1     1427.3     1414.4     1385.4     1385.2
     14.136        0.0        0.0     1487.8     1482.0     1484.8     1458.8     1450.1     1434.9     1421.0     1387.1     1386.3
     14.346        0.0        0.0     1489.8     1482.7     1484.2     1461.3     1454.8     1442.1     1427.3     1388.8     1387.3
     15.095        0.0        0.0     1496.8     1485.2     1481.8     1470.5     1471.6     1467.9     1449.8     1394.6     1391.0
     16.071        0.0        0.0     1478.3     1475.2     1481.0     1477.5     1474.8     1465.1     1462.2     1413.0     1393.8
     16.312        0.0        0.0     1478.2     1474.9     1481.0     1477.9     1474.1     1464.9     1462.8     1418.8     1396.5
     16.338        0.0        0.0     1478.3     1474.9     1480.9     1477.8     1473.8     1465.0     1462.8     1419.0     1396.5
     16.579        0.0        0.0     1479.6     1474.8     1480.1     1477.0     1470.8     1465.1     1462.5     1421.0     1396.0
     17.034        0.0        0.0     1482.0     1474.7     1478.4     1475.4     1465.2     1465.4     1461.9     1424.6     1395.2
     17.275        0.0        0.0     1483.0     1475.1     1476.8     1473.2     1464.7     1462.4     1460.3     1425.3     1395.4
     17.301        0.0        0.0     1483.1     1475.2     1476.6     1473.0     1464.7     1462.0     1460.2     1425.4     1395.5
     17.542        0.0        0.0     1484.1     1475.6     1474.9     1470.8     1464.2     1459.0     1458.6     1426.1     1395.7
     18.522        0.0        0.0     1487.2     1476.2     1468.4     1461.9     1458.1     1451.4     1452.4     1426.6     1397.0
     19.406        0.0        0.0     1465.1     1463.7     1461.0     1455.6     1452.9     1446.4     1448.3     1425.4     1397.8
     19.550        0.0        0.0     1461.4     1461.0     1459.1     1454.5     1452.1     1445.5     1447.8     1425.1     1397.8
     19.576        0.0        0.0     1460.7     1460.5     1458.8     1454.3     1451.9     1445.3     1447.7     1425.1     1397.9
     19.721        0.0        0.0     1457.0     1457.8     1456.9     1453.1     1451.1     1444.4     1447.3     1424.8     1397.9
     19.983        0.0        0.0     1450.3     1452.8     1453.4     1451.1     1449.6     1442.7     1446.5     1424.3     1398.1
     20.128        0.0        0.0     1448.5     1451.1     1451.9     1450.1     1448.8     1441.7     1446.2     1423.8     1398.1
     20.154        0.0        0.0     1448.4     1450.9     1451.7     1450.0     1448.6     1441.6     1446.1     1423.7     1398.1
     20.298        0.0        0.0     1447.6     1449.9     1450.4     1449.1     1447.9     1440.6     1445.9     1423.2     1398.2
     21.180        0.0        0.0     1442.9     1444.3     1443.8     1444.3     1443.0     1435.1     1445.1     1419.9     1412.6
     22.682        0.0        0.0     1432.7     1436.3     1436.1     1437.5     1434.5     1430.0     1445.2     1415.4     1425.9
     24.183        0.0        0.0     1426.2     1429.7     1429.9     1431.1     1428.1     1431.2     1440.0     1413.5     1426.5
     25.685        0.0        0.0     1421.9     1424.2     1424.9     1425.9     1425.1     1430.9     1431.2     1414.2     1427.3
     27.187        0.0        0.0     1418.3     1419.7     1420.6     1421.9     1423.1     1428.7     1425.5     1414.4     1428.1
     28.688        0.0        0.0     1414.9     1416.0     1417.1     1418.8     1421.1     1425.9     1421.9     1414.0     1429.0
     30.190        0.0        0.0     1411.4     1412.9     1414.3     1416.3     1419.1     1423.4     1419.4     1413.1     1430.1
     31.692        0.0        0.0     1407.9     1410.5     1412.1     1414.0     1417.0     1421.3     1417.6     1411.5     1431.2
     33.193        0.0        0.0     1404.6     1408.5     1410.4     1411.9     1414.9     1419.8     1416.2     1409.5     1432.3
     34.695        0.0        0.0     1401.4     1406.8     1409.3     1409.9     1412.9     1418.9     1415.4     1406.9     1433.2
     36.197        0.0        0.0     1398.3     1405.1     1408.5     1408.2     1410.9     1418.9     1415.6     1403.5     1434.1
     37.699        0.0        0.0     1395.1     1403.1     1407.6     1407.2     1409.2     1419.6     1416.9     1398.2     1435.6
     39.200        0.0        0.0     1392.0     1400.4     1406.3     1407.3     1407.6     1420.6     1419.6     1389.0     1437.5
     40.702        0.0        0.0     1389.2     1397.0     1404.3     1408.5     1404.8     1419.2     1428.5     1369.0     1438.2
     41.608        0.0        0.0        0.0        0.0        0.0        0.0        0.0        0.0        0.0        0.0        0.0
     41.763        0.0        0.0        0.0        0.0        0.0        0.0        0.0        0.0        0.0        0.0        0.0

 X / Y          10.372     11.128     11.283
     -0.310        0.0        0.0        0.0
     -0.155        0.0        0.0        0.0
      0.744     1447.9        0.0        0.0
      2.232     1449.9        0.0        0.0
      2.977     1449.9        0.0        0.0
      3.174     1450.0        0.0        0.0
      3.383     1450.0        0.0        0.0
      3.409     1450.0        0.0        0.0
      3.619     1449.9        0.0        0.0
      4.011     1448.0        0.0        0.0
      4.221     1447.0        0.0        0.0
      4.247     1446.9        0.0        0.0
      4.456     1445.9        0.0        0.0
      4.653     1445.0        0.0        0.0
      5.326     1442.9        0.0        0.0
      6.214     1442.0        0.0        0.0
      6.443     1441.8        0.0        0.0
      6.469     1441.7        0.0        0.0
      6.697     1443.4        0.0        0.0
      7.128     1446.8        0.0        0.0
      7.356     1448.5        0.0        0.0
      7.382     1448.8        0.0        0.0
      7.592     1450.4        0.0        0.0
      7.807     1452.1        0.0        0.0
      8.549     1461.9        0.0        0.0
      9.488     1476.6        0.0        0.0
      9.716     1482.2        0.0        0.0
      9.742     1482.9        0.0        0.0
      9.970     1488.5        0.0        0.0
     10.401     1499.0        0.0        0.0
     10.629     1504.6        0.0        0.0
     10.655     1505.2        0.0        0.0
     10.884     1509.5        0.0        0.0
     11.835     1516.7        0.0        0.0
     12.779     1517.2        0.0        0.0
     13.001     1516.1        0.0        0.0
     13.027     1516.0        0.0        0.0
     13.250     1514.9        0.0        0.0
     13.667     1512.8        0.0        0.0
     13.889     1510.3        0.0        0.0
     13.916     1510.0        0.0        0.0
     14.136     1507.3        0.0        0.0
     14.346     1504.8        0.0        0.0
     15.095     1495.8        0.0        0.0
     16.071     1538.0        0.0        0.0
     16.312     1562.2        0.0        0.0
     16.338     1561.2        0.0        0.0
     16.579     1552.1        0.0        0.0
     17.034     1535.2        0.0        0.0
     17.275     1532.9        0.0        0.0
     17.301     1532.6        0.0        0.0
     17.542     1530.3        0.0        0.0
     18.522     1530.4        0.0        0.0
     19.406     1534.2        0.0        0.0
     19.550     1534.7        0.0        0.0
     19.576     1534.8        0.0        0.0
     19.721     1535.3        0.0        0.0
     19.983     1536.3        0.0        0.0
     20.128     1536.9        0.0        0.0
     20.154     1537.0        0.0        0.0
     20.298     1537.7        0.0        0.0
     21.180     1542.0        0.0        0.0
     22.682     1549.8        0.0        0.0
     24.183     1558.2        0.0        0.0
     25.685     1566.5        0.0        0.0
     27.187     1574.1        0.0        0.0
     28.688     1580.0        0.0        0.0
     30.190     1583.5        0.0        0.0
     31.692     1585.6        0.0        0.0
     33.193     1587.4        0.0        0.0
     34.695     1589.7        0.0        0.0
     36.197     1593.0        0.0        0.0
     37.699     1597.5        0.0        0.0
     39.200     1601.7        0.0        0.0
     40.702     1602.6        0.0        0.0
     41.608        0.0        0.0        0.0
     41.763        0.0        0.0        0.0
